Folder: FortgeschrittenenPraktikum2023/Versuche Semester VII/1. V44 Röntgenreflektometrie/python/data

Note: README.md
# FortgeschrittenenPraktikum2023
Git Repo zum Fortgeschrittenenpraktikum von Benedikt Sander und Jana SchlÃ¼cking.

File: detektorscan.UXD
; C:\DIFFDAT1\Praktikum\Schlueckg_Sander\detektorscan.raw(Diffrac Plus V1.01 file) converted by XCH V1.0
_FILEVERSION=2
_SAMPLE='0916-XW-120-M5-ag.raw'
_SITE='Deutschland'
_USER='Administrator'
_GONIOMETER_CODE=4885
; D8 Theta/Theta; Special
_SAMPLE_CHANGER_CODE=0
_ATTACHMENTS_CODE=0
_GONIOMETER_RADIUS=350
_FIXED_DIVSLIT=0.600000
_FIXED_SAMPLESLIT=0.000000
_FIXED_DETSLIT=11.66
_MONOCHROMATOR=0
; None
_THIN_FILM='N'
_BETA_FILTER='Y'
_FIXED_ANTISLIT=8.340000
_ANALYZER_CODE=0
; None
_DATEMEASURED='17-Oct-2022 09:44:53'
_WL_UNIT='A'
_WL1=1.540600
_WL2=1.544390
_WL3=1.392220
_WLRATIO=0.500000
_ANODE='Cu'
; (Data for Range number 1)
_DRIVE='2THETA'
_STEPTIME=0.999980
_STEPSIZE=0.020000
_STEPMODE='C'
_START=-0.500000
_THETA=0.000000
_2THETA=-0.500000
_KHI=0.000000
_PHI=92.46
_X=5.000000
_Y=8.000000
_Z=-20
_DIVERGENCE=0.000000
_ANTISCATTER=0.000000
_DETECTOR=5
_DETECTORSLIT='unkn'
_AUX1=0.000000
_AUX2=0.000000
_AUX3=0.000000
_TIMESTARTED=3.000000
_TEMP_RATE=-1.000000
_TEMP_DELAY=-1.000000
_KV=40
_MA=35
_RANGE_WL=1.540600
_3DPLANE=0
_GONIOMETER=-0.508400
_PSDCHANNEL0=0
_2THETACOUNTS
  -0.5000       301
  -0.4800       381
  -0.4600       465
  -0.4400       513
  -0.4200       781
  -0.4000      1015
  -0.3800      1297
  -0.3600      1692
  -0.3400      2036
  -0.3200      2436
  -0.3000      3058
  -0.2800      3991
  -0.2600      5109
  -0.2400      6599
  -0.2200      8798
  -0.2000     11982
  -0.1800     16569
  -0.1600     25446
  -0.1400     40567
  -0.1200     69164
  -0.1000    134901
  -0.0800    257437
  -0.0600    495614
  -0.0400    733065
  -0.0200    832739
   0.0000    795072
   0.0200    623310
   0.0400    384777
   0.0600    202580
   0.0800    115189
   0.1000     69523
   0.1200     42721
   0.1400     28596
   0.1600     20040
   0.1800     14426
   0.2000     10540
   0.2200      8136
   0.2400      5947
   0.2600      4441
   0.2800      2795
   0.3000      1767
   0.3200       974
   0.3400       390
   0.3600       191
   0.3800       123
   0.4000        88
   0.4200       101
   0.4400        92
   0.4600        86
   0.4800        68
   0.5000        77

File: diffus.UXD
; C:\DIFFDAT1\Praktikum\Schlueckg_Sander\diffus.raw(Diffrac Plus V1.01 file) converted by XCH V1.0
_FILEVERSION=2
_SITE='Deutschland'
_USER='Administrator'
_GONIOMETER_CODE=4885
; D8 Theta/Theta; Special
_SAMPLE_CHANGER_CODE=0
_ATTACHMENTS_CODE=0
_GONIOMETER_RADIUS=350
_FIXED_DIVSLIT=0.600000
_FIXED_SAMPLESLIT=0.000000
_FIXED_DETSLIT=11.66
_MONOCHROMATOR=0
; None
_THIN_FILM='N'
_BETA_FILTER='Y'
_FIXED_ANTISLIT=8.340000
_ANALYZER_CODE=0
; None
_DATEMEASURED='17-Oct-2022 11:46:04'
_WL_UNIT='A'
_WL1=1.540600
_WL2=1.544390
_WL3=1.392220
_WLRATIO=0.500000
_ANODE='Cu'
; (Data for Range number 1)
_DRIVE='THETA'
_STEPTIME=5.000660
_STEPSIZE=0.005000
_STEPMODE='C'
_START=0.000000
_THETA=0.000000
_2THETA=0.100000
_KHI=0.000000
_PHI=92.46
_X=2.008000
_Y=-0.600000
_Z=0.100000
_DIVERGENCE=0.000000
_ANTISCATTER=0.000000
_DETECTOR=5
_DETECTORSLIT='unkn'
_AUX1=0.000000
_AUX2=0.000000
_AUX3=0.000000
_TIMESTARTED=3.000000
_TEMP_RATE=-1.000000
_TEMP_DELAY=-1.000000
_KV=40
_MA=35
_RANGE_WL=1.540600
_3DPLANE=0
_GONIOMETER=0.097500
_PSDCHANNEL0=0
_2THETACOUNTS
   0.0000    480693
   0.0100    320487
   0.0200    207831
   0.0300    162618
   0.0400    139595
   0.0500    122153
   0.0600    113181
   0.0700    113701
   0.0800    112410
   0.0900    112610
   0.1000    109853
   0.1100    101561
   0.1200     93028
   0.1300     78819
   0.1400     69514
   0.1500     56991
   0.1600     43571
   0.1700     36908
   0.1800     31158
   0.1900     25736
   0.2000     20950
   0.2100     16212
   0.2200     11136
   0.2300      6818
   0.2400      4063
   0.2500      2687
   0.2600      2009
   0.2700      1507
   0.2800      1108
   0.2900       919
   0.3000       782
   0.3100       629
   0.3200       517
   0.3300       458
   0.3400       380
   0.3500       319
   0.3600       300
   0.3700       249
   0.3800       234
   0.3900       195
   0.4000       185
   0.4100       176
   0.4200       126
   0.4300       143
   0.4400       130
   0.4500       131
   0.4600       110
   0.4700       111
   0.4800        92
   0.4900        78
   0.5000        89
   0.5100        99
   0.5200        68
   0.5300        60
   0.5400        73
   0.5500        60
   0.5600        63
   0.5700        44
   0.5800        63
   0.5900        50
   0.6000        52
   0.6100        45
   0.6200        46
   0.6300        42
   0.6400        52
   0.6500        30
   0.6600        27
   0.6700        38
   0.6800        36
   0.6900        21
   0.7000        32
   0.7100        32
   0.7200        37
   0.7300        28
   0.7400        27
   0.7500        19
   0.7600        33
   0.7700        25
   0.7800        19
   0.7900        23
   0.8000        19
   0.8100        14
   0.8200        11
   0.8300        17
   0.8400        14
   0.8500        21
   0.8600        14
   0.8700        15
   0.8800        13
   0.8900        12
   0.9000        16
   0.9100        19
   0.9200        14
   0.9300        16
   0.9400        12
   0.9500        18
   0.9600        15
   0.9700        10
   0.9800        15
   0.9900        18
   1.0000         8
   1.0100        11
   1.0200         9
   1.0300         9
   1.0400         9
   1.0500         9
   1.0600         2
   1.0700         8
   1.0800         7
   1.0900        10
   1.1000         7
   1.1100         4
   1.1200         9
   1.1300         5
   1.1400         4
   1.1500         3
   1.1600         6
   1.1700         3
   1.1800         4
   1.1900         6
   1.2000         1
   1.2100         4
   1.2200         3
   1.2300         6
   1.2400         2
   1.2500         5
   1.2600         3
   1.2700         2
   1.2800         2
   1.2900         3
   1.3000         3
   1.3100         0
   1.3200         2
   1.3300         1
   1.3400         2
   1.3500         2
   1.3600         5
   1.3700         2
   1.3800         1
   1.3900         1
   1.4000         1
   1.4100         2
   1.4200         0
   1.4300         1
   1.4400         2
   1.4500         3
   1.4600         2
   1.4700         2
   1.4800         2
   1.4900         1
   1.5000         3
   1.5100         1
   1.5200         1
   1.5300         0
   1.5400         0
   1.5500         1
   1.5600         1
   1.5700         4
   1.5800         2
   1.5900         1
   1.6000         0
   1.6100         2
   1.6200         0
   1.6300         1
   1.6400         0
   1.6500         1
   1.6600         2
   1.6700         1
   1.6800         2
   1.6900         0
   1.7000         0
   1.7100         0
   1.7200         0
   1.7300         0
   1.7400         1
   1.7500         0
   1.7600         2
   1.7700         2
   1.7800         0
   1.7900         0
   1.8000         3
   1.8100         2
   1.8200         1
   1.8300         0
   1.8400         0
   1.8500         0
   1.8600         1
   1.8700         0
   1.8800         1
   1.8900         2
   1.9000         0
   1.9100         0
   1.9200         0
   1.9300         0
   1.9400         1
   1.9500         0
   1.9600         1
   1.9700         0
   1.9800         0
   1.9900         1
   2.0000         0
   2.0100         0
   2.0200         0
   2.0300         0
   2.0400         0
   2.0500         0
   2.0600         1
   2.0700         0
   2.0800         0
   2.0900         0
   2.1000         1
   2.1100         1
   2.1200         1
   2.1300         0
   2.1400         0
   2.1500         2
   2.1600         0
   2.1700         0
   2.1800         0
   2.1900         0
   2.2000         0
   2.2100         1
   2.2200         0
   2.2300         1
   2.2400         0
   2.2500         0
   2.2600         0
   2.2700         0
   2.2800         0
   2.2900         0
   2.3000         0
   2.3100         0
   2.3200         0
   2.3300         0
   2.3400         1
   2.3500         0
   2.3600         0
   2.3700         0
   2.3800         0
   2.3900         0
   2.4000         0
   2.4100         0
   2.4200         0
   2.4300         2
   2.4400         0
   2.4500         0
   2.4600         0
   2.4700         0
   2.4800         0
   2.4900         0
   2.5000         0

File: just_rock1.UXD
; C:\DIFFDAT1\Praktikum\Schlueckg_Sander\just_rock1.raw(Diffrac Plus V1.01 file) converted by XCH V1.0
_FILEVERSION=2
_SAMPLE='0916-XW-120-M5-ag.raw'
_SITE='Deutschland'
_USER='Administrator'
_GONIOMETER_CODE=4885
; D8 Theta/Theta; Special
_SAMPLE_CHANGER_CODE=0
_ATTACHMENTS_CODE=0
_GONIOMETER_RADIUS=350
_FIXED_DIVSLIT=0.600000
_FIXED_SAMPLESLIT=0.000000
_FIXED_DETSLIT=11.66
_MONOCHROMATOR=0
; None
_THIN_FILM='N'
_BETA_FILTER='Y'
_FIXED_ANTISLIT=8.340000
_ANALYZER_CODE=0
; None
_DATEMEASURED='17-Oct-2022 10:14:29'
_WL_UNIT='A'
_WL1=1.540600
_WL2=1.544390
_WL3=1.392220
_WLRATIO=0.500000
_ANODE='Cu'
; (Data for Range number 1)
_DRIVE='THETA'
_STEPTIME=1.000000
_STEPSIZE=0.040000
_STEPMODE='C'
_START=-1.000000
_THETA=-1.000000
_2THETA=0.000000
_KHI=0.000000
_PHI=92.46
_X=2.008000
_Y=0.000000
_Z=0.053000
_DIVERGENCE=0.000000
_ANTISCATTER=0.000000
_DETECTOR=5
_DETECTORSLIT='unkn'
_AUX1=0.000000
_AUX2=0.000000
_AUX3=0.000000
_TIMESTARTED=3.000000
_TEMP_RATE=-1.000000
_TEMP_DELAY=-1.000000
_KV=40
_MA=35
_RANGE_WL=1.540600
_3DPLANE=0
_GONIOMETER=-0.008300
_PSDCHANNEL0=0
_2THETACOUNTS
  -1.0000         5
  -0.9600         7
  -0.9200         9
  -0.8800        23
  -0.8400        55
  -0.8000       273
  -0.7600      2611
  -0.7200     10043
  -0.6800     21462
  -0.6400     37872
  -0.6000     58854
  -0.5600     84817
  -0.5200    115532
  -0.4800    152610
  -0.4400    193442
  -0.4000    223467
  -0.3600    271689
  -0.3200    316016
  -0.2800    366260
  -0.2400    413107
  -0.2000    465444
  -0.1600    514630
  -0.1200    567378
  -0.0800    603102
  -0.0400    649514
   0.0000    685064
   0.0400    715653
   0.0800    676224
   0.1200    631186
   0.1600    591955
   0.2000    549129
   0.2400    501666
   0.2800    455064
   0.3200    409828
   0.3600    362057
   0.4000    312816
   0.4400    269295
   0.4800    227567
   0.5200    187064
   0.5600    150740
   0.6000    125981
   0.6400     95219
   0.6800     68810
   0.7200     45658
   0.7600     27683
   0.8000     14674
   0.8400      5355
   0.8800       717
   0.9200        43
   0.9600        18
   1.0000         3

File: just_rock2.UXD
; C:\DIFFDAT1\Praktikum\Schlueckg_Sander\just_rock2.raw(Diffrac Plus V1.01 file) converted by XCH V1.0
_FILEVERSION=2
_SAMPLE='0916-XW-120-M5-ag.raw'
_SITE='Deutschland'
_USER='Administrator'
_GONIOMETER_CODE=4885
; D8 Theta/Theta; Special
_SAMPLE_CHANGER_CODE=0
_ATTACHMENTS_CODE=0
_GONIOMETER_RADIUS=350
_FIXED_DIVSLIT=0.600000
_FIXED_SAMPLESLIT=0.000000
_FIXED_DETSLIT=11.66
_MONOCHROMATOR=0
; None
_THIN_FILM='N'
_BETA_FILTER='Y'
_FIXED_ANTISLIT=8.340000
_ANALYZER_CODE=0
; None
_DATEMEASURED='17-Oct-2022 10:31:28'
_WL_UNIT='A'
_WL1=1.540600
_WL2=1.544390
_WL3=1.392220
_WLRATIO=0.500000
_ANODE='Cu'
; (Data for Range number 1)
_DRIVE='THETA'
_STEPTIME=1.000000
_STEPSIZE=0.040000
_STEPMODE='C'
_START=-1.000000
_THETA=-1.000000
_2THETA=0.000000
_KHI=0.000000
_PHI=92.46
_X=2.008000
_Y=-0.600000
_Z=0.053000
_DIVERGENCE=0.000000
_ANTISCATTER=0.000000
_DETECTOR=5
_DETECTORSLIT='unkn'
_AUX1=0.000000
_AUX2=0.000000
_AUX3=0.000000
_TIMESTARTED=4.000000
_TEMP_RATE=-1.000000
_TEMP_DELAY=-1.000000
_KV=40
_MA=35
_RANGE_WL=1.540600
_3DPLANE=0
_GONIOMETER=0.000000
_PSDCHANNEL0=0
_2THETACOUNTS
  -1.0000        11
  -0.9600        27
  -0.9200        29
  -0.8800       100
  -0.8400       888
  -0.8000      4869
  -0.7600     13103
  -0.7200     25518
  -0.6800     41986
  -0.6400     63256
  -0.6000     87540
  -0.5600    118451
  -0.5200    153670
  -0.4800    193892
  -0.4400    218151
  -0.4000    262636
  -0.3600    308953
  -0.3200    354497
  -0.2800    399930
  -0.2400    446674
  -0.2000    491649
  -0.1600    538551
  -0.1200    578533
  -0.0800    622267
  -0.0400    658615
   0.0000    697894
   0.0400    725275
   0.0800    680688
   0.1200    638818
   0.1600    594665
   0.2000    551855
   0.2400    501800
   0.2800    453160
   0.3200    402268
   0.3600    350539
   0.4000    301685
   0.4400    254664
   0.4800    212297
   0.5200    168855
   0.5600    140358
   0.6000    104529
   0.6400     74702
   0.6800     50001
   0.7200     29462
   0.7600     15391
   0.8000      5380
   0.8400       659
   0.8800        33
   0.9200        10
   0.9600         8
   1.0000         1

File: just_rock_03.UXD
; C:\DIFFDAT1\Praktikum\Schlueckg_Sander\just_rock_03.raw(Diffrac Plus V1.01 file) converted by XCH V1.0
_FILEVERSION=2
_SAMPLE='0916-XW-120-M5-ag.raw'
_SITE='Deutschland'
_USER='Administrator'
_GONIOMETER_CODE=4885
; D8 Theta/Theta; Special
_SAMPLE_CHANGER_CODE=0
_ATTACHMENTS_CODE=0
_GONIOMETER_RADIUS=350
_FIXED_DIVSLIT=0.600000
_FIXED_SAMPLESLIT=0.000000
_FIXED_DETSLIT=11.66
_MONOCHROMATOR=0
; None
_THIN_FILM='N'
_BETA_FILTER='Y'
_FIXED_ANTISLIT=8.340000
_ANALYZER_CODE=0
; None
_DATEMEASURED='17-Oct-2022 10:40:15'
_WL_UNIT='A'
_WL1=1.540600
_WL2=1.544390
_WL3=1.392220
_WLRATIO=0.500000
_ANODE='Cu'
; (Data for Range number 1)
_DRIVE='THETA'
_STEPTIME=0.999980
_STEPSIZE=0.005000
_STEPMODE='C'
_START=0.000000
_THETA=0.000000
_2THETA=0.300000
_KHI=0.000000
_PHI=92.46
_X=2.008000
_Y=-0.600000
_Z=0.101000
_DIVERGENCE=0.000000
_ANTISCATTER=0.000000
_DETECTOR=5
_DETECTORSLIT='unkn'
_AUX1=0.000000
_AUX2=0.000000
_AUX3=0.000000
_TIMESTARTED=2.000000
_TEMP_RATE=-1.000000
_TEMP_DELAY=-1.000000
_KV=40
_MA=35
_RANGE_WL=1.540600
_3DPLANE=0
_GONIOMETER=0.299500
_PSDCHANNEL0=0
_2THETACOUNTS
   0.0000      2631
   0.0050      2703
   0.0100      2632
   0.0150      2764
   0.0200      2680
   0.0250      2763
   0.0300      2775
   0.0350      2639
   0.0400      2770
   0.0450      2719
   0.0500      2804
   0.0550      2708
   0.0600      2791
   0.0650      2786
   0.0700      2879
   0.0750      2764
   0.0800      2940
   0.0850      2944
   0.0900      2983
   0.0950      3076
   0.1000      3215
   0.1050      3388
   0.1100      3682
   0.1150      4065
   0.1200      4704
   0.1250      5879
   0.1300      7901
   0.1350     10346
   0.1400     13715
   0.1450     17266
   0.1500     20634
   0.1550     24192
   0.1600     28157
   0.1650     34097
   0.1700     48246
   0.1750     90809
   0.1800    164535
   0.1850    238612
   0.1900    275821
   0.1950    290475
   0.2000    294196
   0.2050    296163
   0.2100    289195
   0.2150    268268
   0.2200    216713
   0.2250    141262
   0.2300     86104
   0.2350     52228
   0.2400     38171
   0.2450     29645
   0.2500     22367
   0.2550     16709
   0.2600     12522
   0.2650      9702
   0.2700      7611
   0.2750      6010
   0.2800      5094
   0.2850      4501
   0.2900      3997
   0.2950      3700
   0.3000      3649

File: reflektivitat.UXD
; C:\DIFFDAT1\Praktikum\Schlueckg_Sander\reflektivitat.raw(Diffrac Plus V1.01 file) converted by XCH V1.0
_FILEVERSION=2
_SAMPLE='0916-XW-120-M5-ag.raw'
_SITE='Deutschland'
_USER='Administrator'
_GONIOMETER_CODE=4885
; D8 Theta/Theta; Special
_SAMPLE_CHANGER_CODE=0
_ATTACHMENTS_CODE=0
_GONIOMETER_RADIUS=350
_FIXED_DIVSLIT=0.600000
_FIXED_SAMPLESLIT=0.000000
_FIXED_DETSLIT=11.66
_MONOCHROMATOR=0
; None
_THIN_FILM='N'
_BETA_FILTER='Y'
_FIXED_ANTISLIT=8.340000
_ANALYZER_CODE=0
; None
_DATEMEASURED='17-Oct-2022 10:58:07'
_WL_UNIT='A'
_WL1=1.540600
_WL2=1.544390
_WL3=1.392220
_WLRATIO=0.500000
_ANODE='Cu'
; (Data for Range number 1)
_DRIVE='THETA'
_STEPTIME=5.000660
_STEPSIZE=0.005000
_STEPMODE='C'
_START=0.000000
_THETA=0.000000
_2THETA=0.000000
_KHI=0.000000
_PHI=92.46
_X=2.008000
_Y=-0.600000
_Z=0.100000
_DIVERGENCE=0.000000
_ANTISCATTER=0.000000
_DETECTOR=5
_DETECTORSLIT='unkn'
_AUX1=0.000000
_AUX2=0.000000
_AUX3=0.000000
_TIMESTARTED=2.000000
_TEMP_RATE=-1.000000
_TEMP_DELAY=-1.000000
_KV=40
_MA=35
_RANGE_WL=1.540600
_3DPLANE=0
_GONIOMETER=-0.002600
_PSDCHANNEL0=0
_2THETACOUNTS
   0.0000   2221990
   0.0100   2625700
   0.0200   2768910
   0.0300   2093850
   0.0400   1345510
   0.0500   1026480
   0.0600    940274
   0.0700    924055
   0.0800    968738
   0.0900   1034200
   0.1000   1111220
   0.1100   1194520
   0.1200   1282750
   0.1300   1370430
   0.1400   1450130
   0.1500   1507970
   0.1600   1520640
   0.1700   1553170
   0.1800   1619010
   0.1900   1679640
   0.2000   1706770
   0.2100   1593010
   0.2200   1328450
   0.2300    909630
   0.2400    560609
   0.2500    315147
   0.2600    224334
   0.2700    171340
   0.2800    114622
   0.2900     77731
   0.3000     68412
   0.3100     65930
   0.3200     52850
   0.3300     37129
   0.3400     30084
   0.3500     30988
   0.3600     29792
   0.3700     23494
   0.3800     17015
   0.3900     15265
   0.4000     16180
   0.4100     15781
   0.4200     12415
   0.4300      9278
   0.4400      8506
   0.4500      9241
   0.4600      9083
   0.4700      7175
   0.4800      5573
   0.4900      5299
   0.5000      5652
   0.5100      5512
   0.5200      4632
   0.5300      3520
   0.5400      3271
   0.5500      3567
   0.5600      3449
   0.5700      3010
   0.5800      2355
   0.5900      2206
   0.6000      2225
   0.6100      2273
   0.6200      2031
   0.6300      1709
   0.6400      1469
   0.6500      1514
   0.6600      1457
   0.6700      1351
   0.6800      1120
   0.6900      1003
   0.7000       994
   0.7100      1050
   0.7200       936
   0.7300       797
   0.7400       745
   0.7500       735
   0.7600       781
   0.7700       689
   0.7800       601
   0.7900       483
   0.8000       517
   0.8100       492
   0.8200       520
   0.8300       437
   0.8400       379
   0.8500       359
   0.8600       403
   0.8700       366
   0.8800       292
   0.8900       268
   0.9000       265
   0.9100       245
   0.9200       275
   0.9300       262
   0.9400       225
   0.9500       192
   0.9600       204
   0.9700       202
   0.9800       191
   0.9900       166
   1.0000       148
   1.0100       127
   1.0200       141
   1.0300       126
   1.0400       125
   1.0500       113
   1.0600       102
   1.0700       118
   1.0800       116
   1.0900        92
   1.1000        93
   1.1100        78
   1.1200        60
   1.1300        79
   1.1400        73
   1.1500        75
   1.1600        46
   1.1700        60
   1.1800        48
   1.1900        54
   1.2000        53
   1.2100        47
   1.2200        44
   1.2300        47
   1.2400        47
   1.2500        31
   1.2600        33
   1.2700        41
   1.2800        33
   1.2900        29
   1.3000        35
   1.3100        22
   1.3200        29
   1.3300        23
   1.3400        29
   1.3500        26
   1.3600        16
   1.3700        21
   1.3800        20
   1.3900        31
   1.4000        21
   1.4100        14
   1.4200        12
   1.4300        28
   1.4400        11
   1.4500         9
   1.4600        20
   1.4700        10
   1.4800        18
   1.4900        11
   1.5000        11
   1.5100        10
   1.5200         6
   1.5300         7
   1.5400         7
   1.5500        10
   1.5600         9
   1.5700         6
   1.5800         7
   1.5900        10
   1.6000        11
   1.6100        16
   1.6200        13
   1.6300         8
   1.6400         2
   1.6500         5
   1.6600         8
   1.6700         4
   1.6800         7
   1.6900         3
   1.7000         4
   1.7100         4
   1.7200         6
   1.7300         5
   1.7400         3
   1.7500         2
   1.7600         5
   1.7700         6
   1.7800         5
   1.7900         2
   1.8000         7
   1.8100         2
   1.8200         3
   1.8300         1
   1.8400         5
   1.8500         3
   1.8600         3
   1.8700         4
   1.8800         2
   1.8900         3
   1.9000         3
   1.9100         1
   1.9200         0
   1.9300         4
   1.9400         3
   1.9500         2
   1.9600         2
   1.9700         5
   1.9800         1
   1.9900         3
   2.0000         0
   2.0100         2
   2.0200         2
   2.0300         1
   2.0400         3
   2.0500         1
   2.0600         1
   2.0700         0
   2.0800         1
   2.0900         2
   2.1000         2
   2.1100         1
   2.1200         2
   2.1300         4
   2.1400         2
   2.1500         3
   2.1600         0
   2.1700         2
   2.1800         0
   2.1900         0
   2.2000         0
   2.2100         0
   2.2200         1
   2.2300         2
   2.2400         0
   2.2500         1
   2.2600         2
   2.2700         4
   2.2800         0
   2.2900         0
   2.3000         0
   2.3100         1
   2.3200         0
   2.3300         1
   2.3400         0
   2.3500         0
   2.3600         1
   2.3700         0
   2.3800         1
   2.3900         1
   2.4000         0
   2.4100         2
   2.4200         0
   2.4300         0
   2.4400         1
   2.4500         1
   2.4600         0
   2.4700         2
   2.4800         0
   2.4900         1
   2.5000         1

File: x1.UXD
; C:\DIFFDAT1\Praktikum\Schlueckg_Sander\x1.raw(Diffrac Plus V1.01 file) converted by XCH V1.0
_FILEVERSION=2
_SAMPLE='0916-XW-120-M5-ag.raw'
_SITE='Deutschland'
_USER='Administrator'
_GONIOMETER_CODE=4885
; D8 Theta/Theta; Special
_SAMPLE_CHANGER_CODE=0
_ATTACHMENTS_CODE=0
_GONIOMETER_RADIUS=350
_FIXED_DIVSLIT=0.600000
_FIXED_SAMPLESLIT=0.000000
_FIXED_DETSLIT=11.66
_MONOCHROMATOR=0
; None
_THIN_FILM='N'
_BETA_FILTER='Y'
_FIXED_ANTISLIT=8.340000
_ANALYZER_CODE=0
; None
_DATEMEASURED='17-Oct-2022 09:59:56'
_WL_UNIT='A'
_WL1=1.540600
_WL2=1.544390
_WL3=1.392220
_WLRATIO=0.500000
_ANODE='Cu'
; (Data for Range number 1)
_DRIVE='X'
_STEPTIME=1.000000
_STEPSIZE=1.000000
_STEPMODE='S'
_START=-20
_THETA=0.000000
_2THETA=0.000000
_KHI=0.000000
_PHI=92.46
_X=-20
_Y=-33
_Z=0.053000
_DIVERGENCE=0.000000
_ANTISCATTER=0.000000
_DETECTOR=5
_DETECTORSLIT='unkn'
_AUX1=0.000000
_AUX2=0.000000
_AUX3=0.000000
_TIMESTARTED=5.000000
_TEMP_RATE=-1.000000
_TEMP_DELAY=-1.000000
_KV=40
_MA=35
_RANGE_WL=1.540600
_3DPLANE=0
_GONIOMETER=0.000000
_PSDCHANNEL0=0
_2THETACOUNTS
 -20.0000    708409
 -19.0000    857340
 -18.0000    854970
 -17.0000    860887
 -16.0000    856668
 -15.0000    856494
 -14.0000    856194
 -13.0000    853192
 -12.0000    860974
 -11.0000    853927
 -10.0000    856755
  -9.0000    706410
  -8.0000    613822
  -7.0000    598670
  -6.0000    582799
  -5.0000    567354
  -4.0000    554501
  -3.0000    536347
  -2.0000    517576
  -1.0000    499659
   0.0000    486830
   1.0000    471275
   2.0000    455625
   3.0000    443000
   4.0000    426845
   5.0000    408920
   6.0000    392480
   7.0000    377257
   8.0000    362499
   9.0000    351803
  10.0000    329343
  11.0000    317517
  12.0000    304735
  13.0000    305122
  14.0000    587855
  15.0000    856708
  16.0000    855610
  17.0000    855436
  18.0000    852584
  19.0000    857656
  20.0000    857758

File: z1.UXD
; C:\DIFFDAT1\Praktikum\Schlueckg_Sander\z1.raw(Diffrac Plus V1.01 file) converted by XCH V1.0
_FILEVERSION=2
_SAMPLE='0916-XW-120-M5-ag.raw'
_SITE='Deutschland'
_USER='Administrator'
_GONIOMETER_CODE=4885
; D8 Theta/Theta; Special
_SAMPLE_CHANGER_CODE=0
_ATTACHMENTS_CODE=0
_GONIOMETER_RADIUS=350
_FIXED_DIVSLIT=0.600000
_FIXED_SAMPLESLIT=0.000000
_FIXED_DETSLIT=11.66
_MONOCHROMATOR=0
; None
_THIN_FILM='N'
_BETA_FILTER='Y'
_FIXED_ANTISLIT=8.340000
_ANALYZER_CODE=0
; None
_DATEMEASURED='17-Oct-2022 09:54:26'
_WL_UNIT='A'
_WL1=1.540600
_WL2=1.544390
_WL3=1.392220
_WLRATIO=0.500000
_ANODE='Cu'
; (Data for Range number 1)
_DRIVE='Z'
_STEPTIME=1.000000
_STEPSIZE=0.040000
_STEPMODE='S'
_START=-1.000000
_THETA=0.000000
_2THETA=0.000000
_KHI=0.000000
_PHI=92.46
_X=5.000000
_Y=-33
_Z=-1.000000
_DIVERGENCE=0.000000
_ANTISCATTER=0.000000
_DETECTOR=5
_DETECTORSLIT='unkn'
_AUX1=0.000000
_AUX2=0.000000
_AUX3=0.000000
_TIMESTARTED=3.000000
_TEMP_RATE=-1.000000
_TEMP_DELAY=-1.000000
_KV=40
_MA=35
_RANGE_WL=1.540600
_3DPLANE=0
_GONIOMETER=0.000000
_PSDCHANNEL0=0
_2THETACOUNTS
  -1.0000    855854
  -0.9600    852102
  -0.9200    853579
  -0.8800    859086
  -0.8400    856652
  -0.8000    854006
  -0.7600    856692
  -0.7200    854338
  -0.6800    857024
  -0.6400    856850
  -0.6000    857980
  -0.5600    860934
  -0.5200    857711
  -0.4800    858138
  -0.4400    857261
  -0.4000    853018
  -0.3600    856447
  -0.3200    857284
  -0.2800    856407
  -0.2400    854369
  -0.2000    852805
  -0.1600    856968
  -0.1200    857000
  -0.0800    854124
  -0.0400    843515
   0.0000    729684
   0.0400    500457
   0.0800    253732
   0.1200     68911
   0.1600       692
   0.2000        12
   0.2400         7
   0.2800         9
   0.3200        15
   0.3600        26
   0.4000        46
   0.4400        64
   0.4800        66
   0.5200       152
   0.5600       270
   0.6000       447
   0.6400       938
   0.6800      2724
   0.7200     12336
   0.7600     25528
   0.8000     29538
   0.8400     15638
   0.8800       162
   0.9200        37
   0.9600         1
   1.0000         0